File: resources/data/CeO2_XRD_start12_step16_num4_AlStop_00000_Stitched_vs2q.txt
 	2q	Intensity
1	-3.570	95.695
2	-3.506	89.150
3	-3.442	79.911
4	-3.378	68.413
5	-3.314	58.885
6	-3.250	46.585
7	-3.186	29.117
8	-3.122	11.193
9	-3.059	3.880
10	-2.995	1.937
11	-2.931	1.779
12	-2.867	1.876
13	-2.803	2.006
14	-2.739	1.620
15	-2.675	1.871
16	-2.611	1.809
17	-2.547	1.865
18	-2.483	1.827
19	-2.419	1.634
20	-2.355	1.757
21	-2.291	1.877
22	-2.228	1.817
23	-2.164	1.601
24	-2.100	1.770
25	-2.036	1.682
26	-1.972	1.744
27	-1.908	1.578
28	-1.844	1.843
29	-1.780	1.937
30	-1.716	1.717
31	-1.652	1.710
32	-1.588	1.586
33	-1.524	1.713
34	-1.460	1.511
35	-1.396	1.693
36	-1.333	1.778
37	-1.269	1.812
38	-1.205	1.743
39	-1.141	1.751
40	-1.077	1.770
41	-1.013	1.739
42	-0.949	1.601
43	-0.885	1.629
44	-0.821	1.821
45	-0.757	1.947
46	-0.693	1.347
47	-0.629	1.576
48	-0.565	1.666
49	-0.502	1.660
50	-0.438	1.644
51	-0.374	1.547
52	-0.310	1.391
53	-0.246	1.183
54	-0.182	1.628
55	-0.118	2.506
56	-0.054	2.464
57	0.010	1.868
58	0.074	10.885
59	0.138	150.656
60	0.202	281.943
61	0.266	77.137
62	0.330	8.683
63	0.393	2.753
64	0.457	1.822
65	0.521	1.332
66	0.585	1.658
67	0.649	1.696
68	0.713	2.004
69	0.777	1.740
70	0.841	1.701
71	0.905	1.712
72	0.969	1.752
73	1.033	1.818
74	1.097	1.991
75	1.161	1.852
76	1.224	1.725
77	1.288	1.553
78	1.352	1.730
79	1.416	1.787
80	1.480	1.819
81	1.544	1.722
82	1.608	1.799
83	1.672	1.591
84	1.736	1.805
85	1.800	1.967
86	1.864	1.598
87	1.928	1.837
88	1.992	1.688
89	2.055	1.763
90	2.119	1.913
91	2.183	1.928
92	2.247	1.736
93	2.311	1.859
94	2.375	1.702
95	2.439	1.806
96	2.503	2.087
97	2.567	2.874
98	2.631	6.589
99	2.695	16.881
100	2.759	42.613
101	2.823	64.662
102	2.887	81.489
103	2.950	94.664
104	3.014	106.094
105	3.078	117.090
106	3.142	127.141
107	3.206	136.711
108	3.270	145.222
109	3.334	154.012
110	3.398	163.770
111	3.462	172.036
112	3.526	179.459
113	3.590	186.840
114	3.654	195.494
115	3.718	201.591
116	3.781	208.918
117	3.845	217.820
118	3.909	225.240
119	3.973	234.487
120	4.037	239.816
121	4.101	245.299
122	4.165	248.131
123	4.229	252.481
124	4.293	257.756
125	4.357	261.025
126	4.421	261.607
127	4.485	264.704
128	4.549	268.421
129	4.613	270.166
130	4.676	270.824
131	4.740	273.069
132	4.804	277.847
133	4.868	280.006
134	4.932	284.290
135	4.996	286.712
136	5.060	288.188
137	5.124	291.803
138	5.188	296.636
139	5.252	299.300
140	5.316	302.367
141	5.380	303.520
142	5.444	304.616
143	5.507	306.357
144	5.571	308.366
145	5.635	311.540
146	5.699	313.220
147	5.763	314.604
148	5.827	315.578
149	5.891	316.642
150	5.955	316.557
151	6.019	316.868
152	6.083	320.751
153	6.147	321.842
154	6.211	322.146
155	6.275	323.208
156	6.339	324.432
157	6.402	325.863
158	6.466	326.377
159	6.530	327.349
160	6.594	329.613
161	6.658	329.376
162	6.722	329.857
163	6.786	331.606
164	6.850	332.783
165	6.914	334.608
166	6.978	334.431
167	7.042	333.909
168	7.106	334.219
169	7.170	335.568
170	7.233	335.854
171	7.297	335.685
172	7.361	335.166
173	7.425	336.315
174	7.489	338.498
175	7.553	340.521
176	7.617	342.922
177	7.681	345.234
178	7.745	348.062
179	7.809	349.031
180	7.873	350.577
181	7.937	351.233
182	8.001	350.127
183	8.065	349.488
184	8.128	350.473
185	8.192	349.932
186	8.256	350.063
187	8.320	350.109
188	8.384	350.631
189	8.448	350.536
190	8.512	349.924
191	8.576	347.608
192	8.640	346.166
193	8.704	347.544
194	8.768	345.705
195	8.832	346.493
196	8.896	345.993
197	8.959	345.510
198	9.023	344.282
199	9.087	343.567
200	9.151	343.896
201	9.215	343.784
202	9.279	342.370
203	9.343	340.010
204	9.407	339.745
205	9.471	338.686
206	9.535	338.324
207	9.599	338.069
208	9.663	336.929
209	9.727	336.453
210	9.790	334.459
211	9.854	334.452
212	9.918	332.472
213	9.982	331.412
214	10.046	331.756
215	10.110	332.076
216	10.174	330.944
217	10.238	330.196
218	10.302	329.774
219	10.366	328.443
220	10.430	327.078
221	10.494	325.854
222	10.558	325.946
223	10.622	324.556
224	10.685	323.489
225	10.749	324.159
226	10.813	324.451
227	10.877	322.835
228	10.941	321.658
229	11.005	320.204
230	11.069	319.752
231	11.133	318.889
232	11.197	319.329
233	11.261	318.760
234	11.325	317.946
235	11.389	317.917
236	11.453	318.060
237	11.516	317.874
238	11.580	316.335
239	11.644	315.447
240	11.708	314.860
241	11.772	314.376
242	11.836	314.799
243	11.900	313.734
244	11.964	313.398
245	12.028	313.950
246	12.092	314.326
247	12.156	314.187
248	12.220	312.622
249	12.284	312.459
250	12.348	312.440
251	12.411	311.232
252	12.475	310.349
253	12.539	309.105
254	12.603	308.126
255	12.667	308.233
256	12.731	307.075
257	12.795	306.942
258	12.859	306.712
259	12.923	305.912
260	12.987	305.765
261	13.051	305.832
262	13.115	303.537
263	13.179	303.121
264	13.242	304.317
265	13.306	303.627
266	13.370	301.206
267	13.434	300.472
268	13.498	299.830
269	13.562	301.481
270	13.626	299.654
271	13.690	299.986
272	13.754	297.784
273	13.818	296.061
274	13.882	294.901
275	13.946	295.454
276	14.010	295.297
277	14.074	293.823
278	14.137	293.914
279	14.201	293.876
280	14.265	292.849
281	14.329	290.750
282	14.393	289.041
283	14.457	289.953
284	14.521	289.637
285	14.585	289.235
286	14.649	287.405
287	14.713	287.433
288	14.777	287.935
289	14.841	287.664
290	14.905	286.566
291	14.968	283.714
292	15.032	284.255
293	15.096	284.384
294	15.160	283.079
295	15.224	282.345
296	15.288	281.920
297	15.352	280.059
298	15.416	279.481
299	15.480	279.433
300	15.544	280.071
301	15.608	279.487
302	15.672	278.508
303	15.736	277.205
304	15.800	276.394
305	15.863	275.941
306	15.927	276.860
307	15.991	275.464
308	16.055	276.227
309	16.119	274.420
310	16.183	274.261
311	16.247	273.155
312	16.311	271.397
313	16.375	270.588
314	16.439	269.402
315	16.503	268.039
316	16.567	267.641
317	16.631	266.432
318	16.694	264.645
319	16.758	263.480
320	16.822	263.283
321	16.886	262.153
322	16.950	260.429
323	17.014	259.736
324	17.078	258.479
325	17.142	257.251
326	17.206	256.650
327	17.270	258.047
328	17.334	257.028
329	17.398	254.672
330	17.462	252.536
331	17.525	250.376
332	17.589	249.262
333	17.653	248.464
334	17.717	247.362
335	17.781	246.703
336	17.845	245.175
337	17.909	243.402
338	17.973	243.128
339	18.037	243.072
340	18.101	242.223
341	18.165	239.691
342	18.229	237.470
343	18.293	236.514
344	18.357	236.543
345	18.420	236.392
346	18.484	234.878
347	18.548	231.958
348	18.612	231.509
349	18.676	231.720
350	18.740	229.867
351	18.804	228.761
352	18.868	227.375
353	18.932	227.522
354	18.996	226.072
355	19.060	224.244
356	19.124	223.315
357	19.188	223.229
358	19.251	221.839
359	19.315	222.474
360	19.379	221.236
361	19.443	219.635
362	19.507	218.022
363	19.571	217.672
364	19.635	216.295
365	19.699	217.358
366	19.763	218.075
367	19.827	220.518
368	19.891	216.022
369	19.955	215.269
370	20.019	215.980
371	20.083	215.803
372	20.146	215.067
373	20.210	215.550
374	20.274	214.646
375	20.338	213.347
376	20.402	211.828
377	20.466	210.612
378	20.530	211.617
379	20.594	211.724
380	20.658	211.927
381	20.722	211.590
382	20.786	210.810
383	20.850	209.182
384	20.914	209.647
385	20.977	210.617
386	21.041	211.144
387	21.105	211.937
388	21.169	212.645
389	21.233	212.420
390	21.297	213.867
391	21.361	216.787
392	21.425	219.317
393	21.489	221.258
394	21.553	223.768
395	21.617	228.131
396	21.681	233.949
397	21.745	240.657
398	21.809	250.392
399	21.872	265.695
400	21.936	288.395
401	22.000	324.786
402	22.064	386.322
403	22.128	509.119
404	22.192	823.748
405	22.256	2049.503
406	22.320	6498.609
407	22.384	10637.264
408	22.448	8656.895
409	22.512	3937.931
410	22.576	1388.811
411	22.640	662.026
412	22.703	439.431
413	22.767	343.640
414	22.831	294.205
415	22.895	265.266
416	22.959	245.974
417	23.023	231.699
418	23.087	221.989
419	23.151	214.986
420	23.215	209.420
421	23.279	205.758
422	23.343	202.728
423	23.407	199.487
424	23.471	196.147
425	23.535	193.219
426	23.598	190.208
427	23.662	189.248
428	23.726	188.509
429	23.790	187.572
430	23.854	187.705
431	23.918	186.992
432	23.982	185.891
433	24.046	185.413
434	24.110	184.821
435	24.174	183.772
436	24.238	182.842
437	24.302	181.683
438	24.366	182.520
439	24.429	181.474
440	24.493	180.457
441	24.557	179.706
442	24.621	178.851
443	24.685	178.998
444	24.749	179.262
445	24.813	178.735
446	24.877	178.217
447	24.941	177.853
448	25.005	177.597
449	25.069	178.878
450	25.133	180.786
451	25.197	182.581
452	25.260	184.840
453	25.324	188.047
454	25.388	193.038
455	25.452	200.991
456	25.516	214.816
457	25.580	241.182
458	25.644	302.635
459	25.708	511.430
460	25.772	1366.315
461	25.836	2713.655
462	25.900	2946.785
463	25.964	1676.813
464	26.028	655.382
465	26.092	333.016
466	26.155	246.459
467	26.219	212.190
468	26.283	195.130
469	26.347	184.955
470	26.411	179.131
471	26.475	175.361
472	26.539	172.514
473	26.603	168.533
474	26.667	166.833
475	26.731	165.247
476	26.795	163.480
477	26.859	163.010
478	26.923	162.876
479	26.986	161.312
480	27.050	160.104
481	27.114	160.348
482	27.178	159.762
483	27.242	158.739
484	27.306	158.325
485	27.370	159.227
486	27.434	157.964
487	27.498	157.511
488	27.562	157.642
489	27.626	156.704
490	27.690	155.167
491	27.754	154.920
492	27.818	155.652
493	27.881	155.573
494	27.945	155.843
495	28.009	156.522
496	28.073	157.407
497	28.137	157.752
498	28.201	156.467
499	28.265	154.657
500	28.329	153.640
501	28.393	153.425
502	28.457	153.564
503	28.521	153.588
504	28.585	152.940
505	28.649	152.006
506	28.712	151.178
507	28.776	150.769
508	28.840	149.596
509	28.904	148.428
510	28.968	148.318
511	29.032	147.688
512	29.096	147.724
513	29.160	148.679
514	29.224	149.254
515	29.288	148.936
516	29.352	147.577
517	29.416	146.954
518	29.480	146.843
519	29.544	146.350
520	29.607	145.700
521	29.671	145.105
522	29.735	144.853
523	29.799	145.021
524	29.863	145.103
525	29.927	144.318
526	29.991	143.849
527	30.055	143.137
528	30.119	141.734
529	30.183	141.635
530	30.247	142.089
531	30.311	141.893
532	30.375	141.563
533	30.438	141.525
534	30.502	141.397
535	30.566	140.860
536	30.630	140.587
537	30.694	140.944
538	30.758	141.323
539	30.822	141.094
540	30.886	140.727
541	30.950	140.206
542	31.014	140.145
543	31.078	140.551
544	31.142	140.227
545	31.206	139.722
546	31.270	139.745
547	31.333	139.896
548	31.397	140.461
549	31.461	140.513
550	31.525	140.343
551	31.589	140.507
552	31.653	140.534
553	31.717	140.782
554	31.781	140.040
555	31.845	140.186
556	31.909	140.418
557	31.973	140.827
558	32.037	140.842
559	32.101	140.871
560	32.164	140.591
561	32.228	140.147
562	32.292	139.303
563	32.356	138.963
564	32.420	138.670
565	32.484	138.196
566	32.548	138.400
567	32.612	137.962
568	32.676	137.118
569	32.740	136.579
570	32.804	136.120
571	32.868	135.511
572	32.932	135.576
573	32.995	135.640
574	33.059	135.052
575	33.123	134.814
576	33.187	135.323
577	33.251	135.229
578	33.315	134.103
579	33.379	133.539
580	33.443	133.778
581	33.507	133.864
582	33.571	133.446
583	33.635	132.578
584	33.699	131.853
585	33.763	131.846
586	33.827	131.799
587	33.890	131.453
588	33.954	131.719
589	34.018	131.815
590	34.082	131.558
591	34.146	131.225
592	34.210	131.307
593	34.274	131.639
594	34.338	131.812
595	34.402	131.644
596	34.466	130.875
597	34.530	130.283
598	34.594	130.503
599	34.658	130.672
600	34.721	130.829
601	34.785	130.831
602	34.849	130.709
603	34.913	131.162
604	34.977	131.295
605	35.041	131.126
606	35.105	131.075
607	35.169	131.779
608	35.233	132.316
609	35.297	132.207
610	35.361	132.199
611	35.425	133.556
612	35.489	134.597
613	35.553	135.662
614	35.616	136.627
615	35.680	137.076
616	35.744	137.246
617	35.808	138.593
618	35.872	141.103
619	35.936	144.721
620	36.000	148.604
621	36.064	151.312
622	36.128	155.147
623	36.192	159.199
624	36.256	163.993
625	36.320	171.416
626	36.384	182.535
627	36.447	199.211
628	36.511	226.586
629	36.575	269.560
630	36.639	360.432
631	36.703	612.775
632	36.767	1562.269
633	36.831	4103.873
634	36.895	5921.956
635	36.959	3903.788
636	37.023	1459.632
637	37.087	604.647
638	37.151	352.608
639	37.215	258.041
640	37.279	212.675
641	37.342	187.026
642	37.406	170.049
643	37.470	159.595
644	37.534	152.961
645	37.598	148.665
646	37.662	144.063
647	37.726	139.150
648	37.790	136.960
649	37.854	135.658
650	37.918	133.426
651	37.982	131.052
652	38.046	129.848
653	38.110	128.828
654	38.173	127.965
655	38.237	127.956
656	38.301	127.207
657	38.365	126.192
658	38.429	125.695
659	38.493	124.975
660	38.557	124.302
661	38.621	124.166
662	38.685	123.904
663	38.749	123.077
664	38.813	122.488
665	38.877	122.409
666	38.941	122.191
667	39.005	122.024
668	39.068	122.100
669	39.132	121.963
670	39.196	121.926
671	39.260	121.342
672	39.324	120.776
673	39.388	120.536
674	39.452	120.556
675	39.516	120.943
676	39.580	121.131
677	39.644	120.754
678	39.708	120.504
679	39.772	120.924
680	39.836	120.776
681	39.899	121.280
682	39.963	122.213
683	40.027	122.579
684	40.091	121.844
685	40.155	121.224
686	40.219	120.497
687	40.283	119.977
688	40.347	119.877
689	40.411	119.629
690	40.475	118.775
691	40.539	118.834
692	40.603	119.019
693	40.667	118.675
694	40.730	117.798
695	40.794	117.493
696	40.858	117.249
697	40.922	117.247
698	40.986	117.343
699	41.050	117.453
700	41.114	116.888
701	41.178	116.383
702	41.242	116.593
703	41.306	116.754
704	41.370	117.011
705	41.434	116.652
706	41.498	116.371
707	41.562	116.563
708	41.625	116.842
709	41.689	116.957
710	41.753	116.672
711	41.817	116.694
712	41.881	117.330
713	41.945	117.766
714	42.009	117.548
715	42.073	117.238
716	42.137	117.520
717	42.201	117.859
718	42.265	118.222
719	42.329	118.911
720	42.393	120.445
721	42.456	121.973
722	42.520	122.811
723	42.584	123.904
724	42.648	125.649
725	42.712	129.047
726	42.776	133.492
727	42.840	138.060
728	42.904	143.026
729	42.968	152.711
730	43.032	166.712
731	43.096	186.994
732	43.160	221.547
733	43.224	288.950
734	43.288	458.334
735	43.351	1062.176
736	43.415	2777.071
737	43.479	4467.380
738	43.543	3584.971
739	43.607	1651.930
740	43.671	642.051
741	43.735	339.536
742	43.799	238.580
743	43.863	193.231
744	43.927	168.373
745	43.991	153.653
746	44.055	144.654
747	44.119	138.064
748	44.182	132.568
749	44.246	128.216
750	44.310	124.827
751	44.374	122.109
752	44.438	120.242
753	44.502	118.808
754	44.566	117.412
755	44.630	116.728
756	44.694	115.764
757	44.758	115.114
758	44.822	115.187
759	44.886	116.162
760	44.950	117.051
761	45.014	117.482
762	45.077	119.486
763	45.141	124.754
764	45.205	133.176
765	45.269	149.316
766	45.333	195.879
767	45.397	357.023
768	45.461	736.411
769	45.525	972.798
770	45.589	639.980
771	45.653	300.973
772	45.717	177.965
773	45.781	139.649
774	45.845	124.689
775	45.908	116.885
776	45.972	112.103
777	46.036	108.815
778	46.100	107.096
779	46.164	105.578
780	46.228	104.426
781	46.292	103.795
782	46.356	103.349
783	46.420	103.159
784	46.484	102.446
785	46.548	101.340
786	46.612	101.053
787	46.676	101.426
788	46.740	101.138
789	46.803	100.174
790	46.867	99.734
791	46.931	99.649
792	46.995	99.243
793	47.059	98.732
794	47.123	98.289
795	47.187	97.919
796	47.251	98.247
797	47.315	98.616
798	47.379	98.212
799	47.443	98.263
800	47.507	98.024
801	47.571	97.345
802	47.634	96.987
803	47.698	97.301
804	47.762	97.524
805	47.826	96.848
806	47.890	96.544
807	47.954	97.236
808	48.018	97.923
809	48.082	98.382
810	48.146	97.787
811	48.210	96.372
812	48.274	95.177
813	48.338	94.376
814	48.402	94.106
815	48.465	94.069
816	48.529	94.181
817	48.593	93.271
818	48.657	92.897
819	48.721	93.208
820	48.785	93.267
821	48.849	93.246
822	48.913	93.200
823	48.977	93.241
824	49.041	92.889
825	49.105	92.155
826	49.169	91.584
827	49.233	91.273
828	49.297	91.172
829	49.360	90.914
830	49.424	90.505
831	49.488	90.235
832	49.552	90.061
833	49.616	90.048
834	49.680	89.777
835	49.744	89.407
836	49.808	89.550
837	49.872	89.484
838	49.936	89.156
839	50.000	89.021
840	50.064	88.842
841	50.128	88.533
842	50.191	87.968
843	50.255	88.039
844	50.319	88.716
845	50.383	88.967
846	50.447	88.868
847	50.511	88.500
848	50.575	87.831
849	50.639	87.651
850	50.703	87.461
851	50.767	87.436
852	50.831	87.517
853	50.895	86.898
854	50.959	87.075
855	51.023	86.834
856	51.086	86.839
857	51.150	87.192
858	51.214	86.698
859	51.278	86.198
860	51.342	86.436
861	51.406	86.402
862	51.470	86.465
863	51.534	86.655
864	51.598	86.083
865	51.662	86.038
866	51.726	85.967
867	51.790	87.009
868	51.854	88.117
869	51.917	88.282
870	51.981	88.055
871	52.045	88.955
872	52.109	89.251
873	52.173	89.053
874	52.237	88.368
875	52.301	88.726
876	52.365	88.727
877	52.429	88.527
878	52.493	90.214
879	52.557	91.498
880	52.621	92.534
881	52.685	95.702
882	52.749	100.397
883	52.812	108.128
884	52.876	123.899
885	52.940	176.704
886	53.004	360.705
887	53.068	769.498
888	53.132	778.160
889	53.196	401.030
890	53.260	192.628
891	53.324	127.663
892	53.388	107.874
893	53.452	99.325
894	53.516	93.523
895	53.580	90.537
896	53.643	88.917
897	53.707	87.517
898	53.771	86.651
899	53.835	85.574
900	53.899	84.556
901	53.963	84.306
902	54.027	83.992
903	54.091	83.517
904	54.155	82.990
905	54.219	83.481
906	54.283	84.064
907	54.347	83.765
908	54.411	82.741
909	54.475	82.363
910	54.538	82.151
911	54.602	81.761
912	54.666	81.762
913	54.730	81.465
914	54.794	80.942
915	54.858	80.637
916	54.922	81.047
917	54.986	81.678
918	55.050	81.572
919	55.114	81.420
920	55.178	81.276
921	55.242	81.252
922	55.306	81.356
923	55.369	80.983
924	55.433	81.124
925	55.497	80.535
926	55.561	81.010
927	55.625	80.529
928	55.689	80.216
929	55.753	79.569
930	55.817	80.108
931	55.881	81.133
932	55.945	81.953
933	56.009	82.414
934	56.073	82.734
935	56.137	82.180
936	56.200	81.881
937	56.264	81.231
938	56.328	80.857
939	56.392	80.840
940	56.456	80.090
941	56.520	80.355
942	56.584	80.339
943	56.648	80.838
944	56.712	80.863
945	56.776	81.103
946	56.840	80.324
947	56.904	80.884
948	56.968	81.243
949	57.032	81.041
950	57.095	81.527
951	57.159	81.571
952	57.223	82.281
953	57.287	82.788
954	57.351	82.959
955	57.415	83.246
956	57.479	83.791
957	57.543	85.509
958	57.607	87.914
959	57.671	90.495
960	57.735	93.155
961	57.799	97.434
962	57.863	105.082
963	57.926	117.854
964	57.990	142.752
965	58.054	201.462
966	58.118	373.551
967	58.182	825.239
968	58.246	1408.550
969	58.310	1297.189
970	58.374	606.126
971	58.438	267.138
972	58.502	164.749
973	58.566	128.071
974	58.630	109.397
975	58.694	99.531
976	58.758	93.901
977	58.821	90.444
978	58.885	88.975
979	58.949	86.852
980	59.013	84.811
981	59.077	84.474
982	59.141	84.282
983	59.205	83.771
984	59.269	84.068
985	59.333	84.871
986	59.397	86.748
987	59.461	89.111
988	59.525	92.886
989	59.589	100.117
990	59.652	115.681
991	59.716	152.757
992	59.780	268.300
993	59.844	574.831
994	59.908	845.380
995	59.972	731.209
996	60.036	417.126
997	60.100	215.369
998	60.164	132.388
999	60.228	103.053
1000	60.292	91.597
1001	60.356	85.517
1002	60.420	81.677
1003	60.484	79.167
1004	60.547	77.233
1005	60.611	76.221
1006	60.675	74.195
1007	60.739	73.132
1008	60.803	72.454
1009	60.867	72.639
1010	60.931	71.012
1011	60.995	70.518
1012	61.059	70.061
1013	61.123	69.835
1014	61.187	69.231
1015	61.251	68.285
1016	61.315	68.909
1017	61.378	68.797
1018	61.442	68.037
1019	61.506	67.714
1020	61.570	66.638
1021	61.634	66.271
1022	61.698	67.012
1023	61.762	66.186
1024	61.826	65.315
1025	61.890	65.907
1026	61.954	65.922
1027	62.018	65.764
1028	62.082	65.506
1029	62.146	65.332
1030	62.210	65.326
1031	62.273	65.184
1032	62.337	64.700
1033	62.401	64.341
1034	62.465	64.471
1035	62.529	64.735
1036	62.593	64.628
1037	62.657	64.175
1038	62.721	64.035
1039	62.785	64.154
1040	62.849	63.854
1041	62.913	63.351
1042	62.977	63.609
1043	63.041	63.609
1044	63.104	63.104
1045	63.168	62.852
1046	63.232	62.205
1047	63.296	62.659
1048	63.360	63.118
1049	63.424	62.428
1050	63.488	61.593
1051	63.552	61.366
1052	63.616	62.213
1053	63.680	63.074
1054	63.744	62.198
1055	63.808	62.136
1056	63.872	62.505
1057	63.935	62.079
1058	63.999	62.095
1059	64.063	62.278
1060	64.127	61.873
1061	64.191	60.992
1062	64.255	61.086
1063	64.319	60.085
1064	64.383	59.845
1065	64.447	60.104
1066	64.511	60.416
1067	64.575	60.292
1068	64.639	59.725
1069	64.703	59.116
1070	64.767	59.192
1071	64.830	59.500
1072	64.894	59.896
1073	64.958	59.970
1074	65.022	60.155
1075	65.086	60.199
1076	65.150	60.548
1077	65.214	60.380
1078	65.278	60.117
1079	65.342	60.190
1080	65.406	60.489
1081	65.470	60.895
1082	65.534	61.558
1083	65.598	62.789
1084	65.661	63.751
1085	65.725	65.144
1086	65.789	68.077
1087	65.853	72.061
1088	65.917	77.971
1089	65.981	89.210
1090	66.045	112.232
1091	66.109	166.401
1092	66.173	318.937
1093	66.237	639.741
1094	66.301	901.231
1095	66.365	674.852
1096	66.429	313.688
1097	66.493	156.643
1098	66.556	105.639
1099	66.620	84.999
1100	66.684	73.913
1101	66.748	68.301
1102	66.812	63.748
1103	66.876	61.426
1104	66.940	59.258
1105	67.004	57.661
1106	67.068	56.153
1107	67.132	56.232
1108	67.196	54.737
1109	67.260	54.437
1110	67.324	52.753
1111	67.387	52.764
1112	67.451	52.305
1113	67.515	52.936
1114	67.579	52.262
1115	67.643	51.750
1116	67.707	51.036
1117	67.771	50.800
1118	67.835	50.858
1119	67.899	50.446
1120	67.963	50.701
1121	68.027	50.674
1122	68.091	50.128
1123	68.155	49.560
1124	68.219	49.085
1125	68.282	48.517
1126	68.346	49.013
1127	68.410	48.459
1128	68.474	48.042
1129	68.538	48.042
1130	68.602	47.951
1131	68.666	47.257
1132	68.730	47.085
1133	68.794	47.104
1134	68.858	46.655
1135	68.922	46.530
1136	68.986	46.198
1137	69.050	46.367
1138	69.113	46.592
1139	69.177	45.772
1140	69.241	45.590
1141	69.305	45.419
1142	69.369	45.331
1143	69.433	45.386
1144	69.497	45.663
1145	69.561	45.826
1146	69.625	45.370
1147	69.689	44.845
1148	69.753	45.389
1149	69.817	45.155
1150	69.881	45.338
1151	69.945	45.158
1152	70.008	45.272
1153	70.072	45.935
1154	70.136	46.611
1155	70.200	47.052
1156	70.264	46.798
1157	70.328	48.433
1158	70.392	49.976
1159	70.456	52.951
1160	70.520	56.846
1161	70.584	64.583
1162	70.648	79.264
1163	70.712	116.351
1164	70.776	232.359
1165	70.839	473.519
1166	70.903	584.842
1167	70.967	336.560
1168	71.031	153.131
1169	71.095	89.790
1170	71.159	66.651
1171	71.223	56.378
1172	71.287	51.473
1173	71.351	48.264
1174	71.415	45.488
1175	71.479	44.173
1176	71.543	43.203
1177	71.607	42.459
1178	71.670	41.759
1179	71.734	41.346
1180	71.798	40.901
1181	71.862	40.775
1182	71.926	40.668
1183	71.990	40.198
1184	72.054	38.914
1185	72.118	38.981
1186	72.182	38.599
1187	72.246	37.773
1188	72.310	37.175
1189	72.374	37.085
1190	72.438	37.618
1191	72.502	36.917
1192	72.565	36.316
1193	72.629	36.060
1194	72.693	36.391
1195	72.757	36.245
1196	72.821	36.008
1197	72.885	35.448
1198	72.949	35.380
1199	73.013	35.319
1200	73.077	35.127
1201	73.141	34.954
1202	73.205	34.661
1203	73.269	34.478
1204	73.333	33.926
1205	73.396	33.903
1206	73.460	34.077
1207	73.524	33.839
1208	73.588	33.262
1209	73.652	33.130
1210	73.716	33.224
1211	73.780	33.018
1212	73.844	32.703
1213	73.908	32.004
1214	73.972	31.829
1215	74.036	32.393
1216	74.100	32.302
1217	74.164	31.869
1218	74.228	31.203
1219	74.291	31.073
1220	74.355	31.530
1221	74.419	31.669
1222	74.483	31.559
1223	74.547	30.932
1224	74.611	30.521
1225	74.675	30.787
1226	74.739	30.866
1227	74.803	30.406
1228	74.867	29.967
1229	74.931	29.982
1230	74.995	30.219
1231	75.059	29.793
1232	75.122	29.716
1233	75.186	29.914
1234	75.250	29.813
1235	75.314	29.085
1236	75.378	29.541
1237	75.442	29.338
1238	75.506	29.204