File: resources/data/CeO2_XRD_start12_step16_num4_AlStop_00000_vs2q.txt
 	2q	Intensity
1	-3.570	95.679
2	-3.506	89.139
3	-3.442	79.901
4	-3.378	68.399
5	-3.314	58.868
6	-3.250	46.562
7	-3.186	29.092
8	-3.122	11.160
9	-3.058	3.871
10	-2.994	1.934
11	-2.931	1.779
12	-2.867	1.877
13	-2.803	2.005
14	-2.739	1.618
15	-2.675	1.872
16	-2.611	1.808
17	-2.547	1.865
18	-2.483	1.826
19	-2.419	1.633
20	-2.355	1.757
21	-2.291	1.878
22	-2.227	1.816
23	-2.163	1.602
24	-2.099	1.769
25	-2.035	1.682
26	-1.971	1.747
27	-1.907	1.582
28	-1.844	1.843
29	-1.780	1.942
30	-1.716	1.716
31	-1.652	1.707
32	-1.588	1.585
33	-1.524	1.713
34	-1.460	1.510
35	-1.396	1.696
36	-1.332	1.777
37	-1.268	1.811
38	-1.204	1.744
39	-1.140	1.751
40	-1.076	1.772
41	-1.012	1.738
42	-0.948	1.597
43	-0.884	1.628
44	-0.820	1.822
45	-0.756	1.939
46	-0.693	1.344
47	-0.629	1.582
48	-0.565	1.668
49	-0.501	1.660
50	-0.437	1.647
51	-0.373	1.550
52	-0.309	1.388
53	-0.245	1.176
54	-0.181	1.642
55	-0.117	2.521
56	-0.053	2.450
57	0.011	1.776
58	0.075	11.075
59	0.139	153.042
60	0.203	284.667
61	0.267	74.591
62	0.331	7.882
63	0.394	2.592
64	0.458	1.803
65	0.522	1.329
66	0.586	1.658
67	0.650	1.700
68	0.714	2.005
69	0.778	1.732
70	0.842	1.699
71	0.906	1.712
72	0.970	1.759
73	1.034	1.814
74	1.098	1.996
75	1.162	1.851
76	1.226	1.719
77	1.290	1.551
78	1.354	1.730
79	1.418	1.786
80	1.481	1.824
81	1.545	1.721
82	1.609	1.805
83	1.673	1.589
84	1.737	1.818
85	1.801	1.961
86	1.865	1.590
87	1.929	1.835
88	1.993	1.684
89	2.057	1.776
90	2.121	1.912
91	2.185	1.917
92	2.249	1.728
93	2.313	1.857
94	2.377	1.696
95	2.441	1.809
96	2.505	2.097
97	2.569	2.897
98	2.632	6.693
99	2.696	17.180
100	2.760	42.289
101	2.824	65.265
102	2.888	81.964
103	2.952	95.056
104	3.016	106.441
105	3.080	117.398
106	3.144	127.479
107	3.208	136.987
108	3.272	145.434
109	3.336	154.248
110	3.400	164.055
111	3.464	172.277
112	3.528	179.663
113	3.592	187.091
114	3.656	195.743
115	3.719	201.811
116	3.783	209.088
117	3.847	218.107
118	3.911	225.474
119	3.975	234.733
120	4.039	240.016
121	4.103	245.460
122	4.167	248.289
123	4.231	252.707
124	4.295	258.005
125	4.359	261.248
126	4.423	261.634
127	4.487	264.832
128	4.551	268.536
129	4.615	270.344
130	4.679	270.890
131	4.743	273.270
132	4.806	277.887
133	4.870	280.161
134	4.934	284.439
135	4.998	286.659
136	5.062	288.259
137	5.126	290.045
138	5.190	296.866
139	5.254	299.449
140	5.318	302.485
141	5.382	303.595
142	5.446	304.630
143	5.510	306.492
144	5.574	308.505
145	5.638	311.714
146	5.702	313.359
147	5.766	314.703
148	5.830	315.705
149	5.894	316.708
150	5.957	316.630
151	6.021	316.935
152	6.085	320.921
153	6.149	321.918
154	6.213	322.228
155	6.277	323.317
156	6.341	324.560
157	6.405	325.955
158	6.469	326.472
159	6.533	327.446
160	6.597	329.797
161	6.661	329.460
162	6.725	329.923
163	6.789	331.706
164	6.853	332.882
165	6.917	334.755
166	6.981	334.507
167	7.044	333.911
168	7.108	334.263
169	7.172	335.667
170	7.236	335.940
171	7.300	335.760
172	7.364	335.188
173	7.428	336.408
174	7.492	338.570
175	7.556	340.600
176	7.620	342.986
177	7.684	345.305
178	7.748	348.132
179	7.812	348.999
180	7.876	350.676
181	7.940	351.199
182	8.004	350.076
183	8.068	349.453
184	8.131	350.483
185	8.195	349.876
186	8.259	350.038
187	8.323	350.160
188	8.387	350.582
189	8.451	350.587
190	8.515	349.871
191	8.579	347.484
192	8.643	346.134
193	8.707	347.600
194	8.771	345.589
195	8.835	346.558
196	8.899	345.932
197	8.963	345.476
198	9.027	344.235
199	9.091	343.516
200	9.155	343.907
201	9.219	343.794
202	9.282	342.276
203	9.346	339.883
204	9.410	339.741
205	9.474	338.634
206	9.538	338.298
207	9.602	338.050
208	9.666	336.870
209	9.730	336.398
210	9.794	334.357
211	9.858	334.471
212	9.922	332.364
213	9.986	331.330
214	10.050	331.808
215	10.114	332.067
216	10.178	330.884
217	10.242	330.183
218	10.306	329.731
219	10.369	328.366
220	10.433	326.990
221	10.497	325.799
222	10.561	325.935
223	10.625	324.474
224	10.689	323.418
225	10.753	324.220
226	10.817	324.455
227	10.881	322.729
228	10.945	321.592
229	11.009	320.125
230	11.073	319.734
231	11.137	318.824
232	11.201	319.375
233	11.265	318.703
234	11.329	317.908
235	11.393	317.913
236	11.456	318.086
237	11.520	317.842
238	11.584	316.245
239	11.648	315.389
240	11.712	314.814
241	11.776	314.373
242	11.840	314.819
243	11.904	313.662
244	11.968	313.377
245	12.032	313.996
246	12.096	314.333
247	12.160	314.187
248	12.224	312.508
249	12.288	312.470
250	12.352	312.441
251	12.416	311.147
252	12.480	310.293
253	12.544	309.015
254	12.607	308.080
255	12.671	308.229
256	12.735	307.000
257	12.799	306.940
258	12.863	306.707
259	12.927	305.842
260	12.991	305.759
261	13.055	305.828
262	13.119	303.390
263	13.183	303.099
264	13.247	304.401
265	13.311	303.570
266	13.375	301.037
267	13.439	300.446
268	13.503	299.773
269	13.567	301.604
270	13.631	299.505
271	13.694	300.026
272	13.758	297.613
273	13.822	295.953
274	13.886	294.823
275	13.950	295.486
276	14.014	295.288
277	14.078	293.713
278	14.142	293.941
279	14.206	293.868
280	14.270	292.763
281	14.334	290.595
282	14.398	288.926
283	14.462	290.044
284	14.526	289.604
285	14.590	289.203
286	14.654	287.249
287	14.718	287.474
288	14.781	287.957
289	14.845	287.644
290	14.909	286.474
291	14.973	283.503
292	15.037	284.321
293	15.101	284.386
294	15.165	282.970
295	15.229	282.295
296	15.293	281.885
297	15.357	279.916
298	15.421	279.436
299	15.485	279.442
300	15.549	280.118
301	15.613	279.433
302	15.677	278.435
303	15.741	277.098
304	15.805	276.339
305	15.869	275.911
306	15.932	276.935
307	15.996	275.345
308	16.060	276.304
309	16.124	274.255
310	16.188	274.260
311	16.252	273.053
312	16.316	271.255
313	16.380	270.531
314	16.444	269.300
315	16.508	267.931
316	16.572	267.611
317	16.636	266.327
318	16.700	264.499
319	16.764	263.393
320	16.828	263.276
321	16.892	262.041
322	16.956	260.299
323	17.019	259.671
324	17.083	258.380
325	17.147	257.143
326	17.211	256.617
327	17.275	258.169
328	17.339	256.923
329	17.403	254.456
330	17.467	252.362
331	17.531	250.194
332	17.595	249.172
333	17.659	248.409
334	17.723	247.257
335	17.787	246.646
336	17.851	245.038
337	17.915	243.256
338	17.979	243.116
339	18.043	243.067
340	18.106	242.133
341	18.170	239.461
342	18.234	237.282
343	18.298	236.439
344	18.362	236.557
345	18.426	236.373
346	18.490	234.729
347	18.554	231.687
348	18.618	231.500
349	18.682	231.736
350	18.746	229.686
351	18.810	228.671
352	18.874	227.246
353	18.938	227.544
354	19.002	225.927
355	19.066	224.074
356	19.130	223.239
357	19.194	223.226
358	19.257	221.697
359	19.321	222.560
360	19.385	221.095
361	19.449	219.484
362	19.513	217.875
363	19.577	217.651
364	19.641	216.154
365	19.705	217.493
366	19.769	218.134
367	19.833	220.755
368	19.897	215.534
369	19.961	215.244
370	20.025	215.372
371	20.089	214.570
372	20.153	212.554
373	20.217	213.070
374	20.281	212.167
375	20.344	211.301
376	20.408	211.215
377	20.472	207.828
378	20.536	207.644
379	20.600	208.482
380	20.664	207.904
381	20.728	207.347
382	20.792	206.974
383	20.856	207.990
384	20.920	207.873
385	20.984	207.254
386	21.048	207.285
387	21.112	208.747
388	21.176	210.241
389	21.240	211.076
390	21.304	212.027
391	21.368	213.597
392	21.431	216.504
393	21.495	221.472
394	21.559	224.426
395	21.623	228.851
396	21.687	238.715
397	21.751	252.367
398	21.815	268.152
399	21.879	295.806
400	21.943	341.927
401	22.007	421.246
402	22.071	583.050
403	22.135	1035.379
404	22.199	2934.454
405	22.263	9904.745
406	22.327	12088.536
407	22.391	4954.834
408	22.455	1586.111
409	22.519	728.551
410	22.582	464.625
411	22.646	353.289
412	22.710	295.578
413	22.774	263.332
414	22.838	241.299
415	22.902	226.204
416	22.966	215.293
417	23.030	207.140
418	23.094	201.761
419	23.158	196.451
420	23.222	192.967
421	23.286	188.386
422	23.350	184.835
423	23.414	182.226
424	23.478	179.996
425	23.542	177.650
426	23.606	176.530
427	23.669	174.986
428	23.733	175.987
429	23.797	174.026
430	23.861	173.570
431	23.925	173.269
432	23.989	171.682
433	24.053	169.686
434	24.117	168.629
435	24.181	168.023
436	24.245	167.347
437	24.309	166.937
438	24.373	165.608
439	24.437	165.190
440	24.501	163.928
441	24.565	163.452
442	24.629	161.816
443	24.693	163.098
444	24.756	162.469
445	24.820	161.855
446	24.884	162.417
447	24.948	162.395
448	25.012	162.219
449	25.076	163.061
450	25.140	164.397
451	25.204	166.809
452	25.268	171.482
453	25.332	178.099
454	25.396	186.144
455	25.460	202.315
456	25.524	234.557
457	25.588	309.475
458	25.652	578.299
459	25.716	1818.105
460	25.780	3455.616
461	25.844	2128.197
462	25.907	756.426
463	25.971	343.123
464	26.035	236.996
465	26.099	197.384
466	26.163	177.443
467	26.227	166.943
468	26.291	159.847
469	26.355	155.316
470	26.419	151.940
471	26.483	149.730
472	26.547	147.104
473	26.611	145.342
474	26.675	143.586
475	26.739	142.374
476	26.803	142.180
477	26.867	142.025
478	26.931	140.665
479	26.994	139.667
480	27.058	138.712
481	27.122	137.689
482	27.186	137.893
483	27.250	137.066
484	27.314	135.546
485	27.378	135.212
486	27.442	135.444
487	27.506	135.330